      freq (eV)        Lorentz     Gen_Plasma      Bren_Borm
          0.200      -1445.820      -2024.000      -1474.915
          0.210      -1319.363      -1835.735      -1345.060
          0.220      -1208.492      -1672.554      -1231.346
          0.230      -1110.793      -1530.191      -1131.246
          0.240      -1024.293      -1405.250      -1042.701
          0.250       -947.367      -1295.000       -964.022
          0.260       -878.673      -1197.225       -893.813
          0.270       -817.092      -1110.111       -830.915
          0.280       -761.685      -1032.163       -774.357
          0.290       -711.664       -962.139       -723.323
          0.300       -666.359       -899.000       -677.123
          0.310       -625.201       -841.872       -635.170
          0.320       -587.703       -790.016       -596.964
          0.330       -553.449       -742.802       -562.074
          0.340       -522.076       -699.692       -530.130
          0.350       -493.273       -660.225       -500.811
          0.360       -466.770       -624.000       -473.840
          0.370       -442.328       -590.673       -448.974
          0.380       -419.741       -559.942       -426.001
          0.390       -398.828       -531.544       -404.734
          0.400       -379.427       -505.250       -385.009
          0.410       -361.397       -480.856       -366.681
          0.420       -344.613       -458.184       -349.623
          0.430       -328.962       -437.075       -333.719
          0.440       -314.347       -417.388       -318.869
          0.450       -300.676       -399.000       -304.982
          0.460       -287.873       -381.798       -291.977
          0.470       -275.864       -365.682       -279.781
          0.480       -264.585       -350.562       -268.328
          0.490       -253.980       -336.359       -257.559
          0.500       -243.995       -323.000       -247.421
          0.510       -234.583       -310.419       -237.867
          0.520       -225.702       -298.556       -228.851
          0.530       -217.311       -287.359       -220.335
          0.540       -209.377       -276.778       -212.283
          0.550       -201.866       -266.769       -204.660
          0.560       -194.749       -257.291       -197.438
          0.570       -188.000       -248.307       -190.589
          0.580       -181.592       -239.785       -184.088
          0.590       -175.504       -231.692       -177.912
          0.600       -169.715       -224.000       -172.038
          0.610       -164.205       -216.683       -166.449
          0.620       -158.957       -209.718       -161.126
          0.630       -153.955       -203.082       -156.052
          0.640       -149.183       -196.754       -151.212
          0.650       -144.628       -190.716       -146.592
          0.660       -140.277       -184.950       -142.178
          0.670       -136.117       -179.441       -137.960
          0.680       -132.138       -174.173       -133.925
          0.690       -128.329       -169.132       -130.062
          0.700       -124.681       -164.306       -126.363
          0.710       -121.185       -159.682       -122.818
          0.720       -117.833       -155.250       -119.419
          0.730       -114.617       -150.999       -116.158
          0.740       -111.529       -146.918       -113.027
          0.750       -108.563       -143.000       -110.020
          0.760       -105.713       -139.235       -107.130
          0.770       -102.972       -135.617       -104.352
          0.780       -100.335       -132.136       -101.679
          0.790        -97.797       -128.787        -99.106
          0.800        -95.354       -125.563        -96.629
          0.810        -92.999       -122.457        -94.242
          0.820        -90.730       -119.464        -91.942
          0.830        -88.542       -116.579        -89.724
          0.840        -86.431       -113.796        -87.584
          0.850        -84.394       -111.111        -85.519
          0.860        -82.427       -108.519        -83.526
          0.870        -80.527       -106.015        -81.600
          0.880        -78.691       -103.597        -79.739
          0.890        -76.917       -101.260        -77.941
          0.900        -75.201        -99.000        -76.202
          0.910        -73.541        -96.814        -74.519
          0.920        -71.935        -94.699        -72.891
          0.930        -70.380        -92.652        -71.315
          0.940        -68.874        -90.670        -69.789
          0.950        -67.415        -88.751        -68.311
          0.960        -66.002        -86.891        -66.878
          0.970        -64.631        -85.088        -65.490
          0.980        -63.303        -83.340        -64.143
          0.990        -62.014        -81.645        -62.837
          1.000        -60.763        -80.000        -61.570
          1.010        -59.550        -78.404        -60.340
          1.020        -58.372        -76.855        -59.146
          1.030        -57.227        -75.350        -57.987
          1.040        -56.116        -73.889        -56.860
          1.050        -55.036        -72.469        -55.766
          1.060        -53.986        -71.090        -54.702
          1.070        -52.966        -69.749        -53.668
          1.080        -51.973        -68.444        -52.663
          1.090        -51.008        -67.176        -51.685
          1.100        -50.069        -65.942        -50.733
          1.110        -49.155        -64.741        -49.807
          1.120        -48.265        -63.573        -48.906
          1.130        -47.399        -62.435        -48.028
          1.140        -46.556        -61.327        -47.173
          1.150        -45.734        -60.248        -46.341
          1.160        -44.933        -59.196        -45.529
          1.170        -44.153        -58.172        -44.739
          1.180        -43.393        -57.173        -43.968
          1.190        -42.651        -56.199        -43.217
          1.200        -41.928        -55.250        -42.485
          1.210        -41.223        -54.324        -41.770
          1.220        -40.535        -53.421        -41.073
          1.230        -39.863        -52.540        -40.393
          1.240        -39.208        -51.680        -39.729
          1.250        -38.568        -50.840        -39.081
          1.260        -37.944        -50.020        -38.448
          1.270        -37.334        -49.220        -37.830
          1.280        -36.739        -48.438        -37.227
          1.290        -36.157        -47.675        -36.637
          1.300        -35.588        -46.929        -36.061
          1.310        -35.033        -46.200        -35.499
          1.320        -34.490        -45.488        -34.948
          1.330        -33.959        -44.791        -34.411
          1.340        -33.440        -44.110        -33.885
          1.350        -32.932        -43.444        -33.371
          1.360        -32.436        -42.793        -32.868
          1.370        -31.950        -42.156        -32.376
          1.380        -31.475        -41.533        -31.894
          1.390        -31.010        -40.923        -31.423
          1.400        -30.555        -40.327        -30.963
          1.410        -30.110        -39.742        -30.511
          1.420        -29.674        -39.171        -30.070
          1.430        -29.247        -38.611        -29.637
          1.440        -28.829        -38.062        -29.214
          1.450        -28.419        -37.526        -28.799
          1.460        -28.018        -37.000        -28.392
          1.470        -27.625        -36.484        -27.994
          1.480        -27.240        -35.980        -27.604
          1.490        -26.863        -35.485        -27.222
          1.500        -26.493        -35.000        -26.847
          1.510        -26.131        -34.525        -26.480
          1.520        -25.775        -34.059        -26.120
          1.530        -25.427        -33.602        -25.767
          1.540        -25.085        -33.154        -25.421
          1.550        -24.750        -32.715        -25.082
          1.560        -24.421        -32.284        -24.749
          1.570        -24.099        -31.861        -24.422
          1.580        -23.783        -31.447        -24.102
          1.590        -23.472        -31.040        -23.787
          1.600        -23.168        -30.641        -23.479
          1.610        -22.869        -30.249        -23.176
          1.620        -22.575        -29.864        -22.878
          1.630        -22.287        -29.487        -22.587
          1.640        -22.004        -29.116        -22.300
          1.650        -21.727        -28.752        -22.019
          1.660        -21.454        -28.395        -21.743
          1.670        -21.186        -28.044        -21.471
          1.680        -20.923        -27.699        -21.205
          1.690        -20.665        -27.360        -20.943
          1.700        -20.411        -27.028        -20.686
          1.710        -20.161        -26.701        -20.433
          1.720        -19.916        -26.380        -20.185
          1.730        -19.675        -26.064        -19.941
          1.740        -19.438        -25.754        -19.701
          1.750        -19.206        -25.449        -19.465
          1.760        -18.977        -25.149        -19.234
          1.770        -18.752        -24.855        -19.006
          1.780        -18.531        -24.565        -18.782
          1.790        -18.314        -24.280        -18.562
          1.800        -18.100        -24.000        -18.345
          1.810        -17.889        -23.725        -18.132
          1.820        -17.683        -23.454        -17.923
          1.830        -17.479        -23.187        -17.716
          1.840        -17.279        -22.925        -17.514
          1.850        -17.082        -22.667        -17.314
          1.860        -16.888        -22.413        -17.118
          1.870        -16.698        -22.163        -16.925
          1.880        -16.510        -21.918        -16.735
          1.890        -16.325        -21.676        -16.548
          1.900        -16.144        -21.438        -16.364
          1.910        -15.965        -21.203        -16.182
          1.920        -15.789        -20.973        -16.004
          1.930        -15.615        -20.746        -15.828
          1.940        -15.445        -20.522        -15.656
          1.950        -15.276        -20.302        -15.485
          1.960        -15.111        -20.085        -15.318
          1.970        -14.948        -19.871        -15.152
          1.980        -14.787        -19.661        -14.990
          1.990        -14.629        -19.454        -14.830
          2.000        -14.473        -19.250        -14.672
          2.010        -14.320        -19.049        -14.516
          2.020        -14.169        -18.851        -14.363
          2.030        -14.020        -18.656        -14.212
          2.040        -13.873        -18.464        -14.064
          2.050        -13.728        -18.274        -13.917
          2.060        -13.586        -18.088        -13.773
          2.070        -13.445        -17.904        -13.630
          2.080        -13.307        -17.722        -13.490
          2.090        -13.170        -17.544        -13.352
          2.100        -13.036        -17.367        -13.216
          2.110        -12.903        -17.194        -13.081
          2.120        -12.772        -17.022        -12.949
          2.130        -12.643        -16.854        -12.818
          2.140        -12.516        -16.687        -12.689
          2.150        -12.391        -16.523        -12.562
          2.160        -12.267        -16.361        -12.437
          2.170        -12.145        -16.201        -12.314
          2.180        -12.025        -16.044        -12.192
          2.190        -11.906        -15.889        -12.072
          2.200        -11.789        -15.736        -11.953
          2.210        -11.674        -15.584        -11.836
          2.220        -11.560        -15.435        -11.721
          2.230        -11.448        -15.288        -11.607
          2.240        -11.337        -15.143        -11.495
          2.250        -11.228        -15.000        -11.384
          2.260        -11.120        -14.859        -11.275
          2.270        -11.013        -14.719        -11.167
          2.280        -10.908        -14.582        -11.061
          2.290        -10.804        -14.446        -10.956
          2.300        -10.702        -14.312        -10.852
          2.310        -10.601        -14.180        -10.750
          2.320        -10.501        -14.049        -10.649
          2.330        -10.403        -13.920        -10.549
          2.340        -10.306        -13.793        -10.450
          2.350        -10.210        -13.667        -10.353
          2.360        -10.115        -13.543        -10.257
          2.370        -10.021        -13.421        -10.162
          2.380         -9.929        -13.300        -10.069
          2.390         -9.838        -13.180         -9.977
          2.400         -9.748        -13.062         -9.885
          2.410         -9.659        -12.946         -9.795
          2.420         -9.571        -12.831         -9.706
          2.430         -9.484        -12.717         -9.618
          2.440         -9.398        -12.605         -9.531
          2.450         -9.314        -12.494         -9.446
          2.460         -9.230        -12.385         -9.361
          2.470         -9.147        -12.277         -9.277
          2.480         -9.066        -12.170         -9.195
          2.490         -8.985        -12.064         -9.113
          2.500         -8.905        -11.960         -9.032
          2.510         -8.827        -11.857         -8.952
          2.520         -8.749        -11.755         -8.874
          2.530         -8.672        -11.654         -8.796
          2.540         -8.596        -11.555         -8.719
          2.550         -8.521        -11.457         -8.643
          2.560         -8.447        -11.360         -8.568
          2.570         -8.373        -11.264         -8.493
          2.580         -8.301        -11.169         -8.420
          2.590         -8.229        -11.075         -8.347
          2.600         -8.158        -10.982         -8.276
          2.610         -8.088        -10.891         -8.205
          2.620         -8.019        -10.800         -8.135
          2.630         -7.951        -10.710         -8.065
          2.640         -7.883        -10.622         -7.997
          2.650         -7.816        -10.534         -7.929
          2.660         -7.750        -10.448         -7.862
          2.670         -7.685        -10.362         -7.796
          2.680         -7.620        -10.278         -7.730
          2.690         -7.556        -10.194         -7.666
          2.700         -7.493        -10.111         -7.601
          2.710         -7.430        -10.029         -7.538
          2.720         -7.368         -9.948         -7.476
          2.730         -7.307         -9.868         -7.414
          2.740         -7.247         -9.789         -7.352
          2.750         -7.187         -9.711         -7.292
          2.760         -7.128         -9.633         -7.232
          2.770         -7.069         -9.557         -7.172
          2.780         -7.011         -9.481         -7.114
          2.790         -6.954         -9.406         -7.056
          2.800         -6.897         -9.332         -6.998
          2.810         -6.841         -9.258         -6.941
          2.820         -6.786         -9.186         -6.885
          2.830         -6.731         -9.114         -6.830
          2.840         -6.676         -9.043         -6.775
          2.850         -6.623         -8.972         -6.720
          2.860         -6.570         -8.903         -6.666
          2.870         -6.517         -8.834         -6.613
          2.880         -6.465         -8.766         -6.560
          2.890         -6.413         -8.698         -6.508
          2.900         -6.362         -8.631         -6.456
          2.910         -6.312         -8.565         -6.405
          2.920         -6.262         -8.500         -6.355
          2.930         -6.212         -8.435         -6.304
          2.940         -6.163         -8.371         -6.255
          2.950         -6.115         -8.308         -6.206
          2.960         -6.067         -8.245         -6.157
          2.970         -6.019         -8.183         -6.109
          2.980         -5.972         -8.121         -6.061
          2.990         -5.926         -8.060         -6.014
          3.000         -5.880         -8.000         -5.968
          3.010         -5.834         -7.940         -5.921
          3.020         -5.789         -7.881         -5.876
          3.030         -5.744         -7.823         -5.830
          3.040         -5.700         -7.765         -5.786
          3.050         -5.656         -7.707         -5.741
          3.060         -5.613         -7.651         -5.697
          3.070         -5.570         -7.594         -5.654
          3.080         -5.527         -7.539         -5.611
          3.090         -5.485         -7.483         -5.568
          3.100         -5.443         -7.429         -5.526
          3.110         -5.402         -7.375         -5.484
          3.120         -5.361         -7.321         -5.442
          3.130         -5.320         -7.268         -5.401
          3.140         -5.280         -7.215         -5.360
          3.150         -5.240         -7.163         -5.320
          3.160         -5.201         -7.112         -5.280
          3.170         -5.162         -7.061         -5.241
          3.180         -5.123         -7.010         -5.201
          3.190         -5.085         -6.960         -5.163
          3.200         -5.047         -6.910         -5.124
          3.210         -5.009         -6.861         -5.086
          3.220         -4.972         -6.812         -5.048
          3.230         -4.935         -6.764         -5.011
          3.240         -4.899         -6.716         -4.974
          3.250         -4.862         -6.669         -4.937
          3.260         -4.826         -6.622         -4.901
          3.270         -4.791         -6.575         -4.865
          3.280         -4.756         -6.529         -4.829
          3.290         -4.721         -6.483         -4.794
          3.300         -4.686         -6.438         -4.759
          3.310         -4.652         -6.393         -4.724
          3.320         -4.618         -6.349         -4.690
          3.330         -4.584         -6.305         -4.655
          3.340         -4.551         -6.261         -4.622
          3.350         -4.518         -6.218         -4.588
          3.360         -4.485         -6.175         -4.555
          3.370         -4.452         -6.132         -4.522
          3.380         -4.420         -6.090         -4.489
          3.390         -4.388         -6.048         -4.457
          3.400         -4.357         -6.007         -4.425
          3.410         -4.325         -5.966         -4.393
          3.420         -4.294         -5.925         -4.362
          3.430         -4.263         -5.885         -4.331
          3.440         -4.233         -5.845         -4.300
          3.450         -4.202         -5.805         -4.269
          3.460         -4.172         -5.766         -4.239
          3.470         -4.143         -5.727         -4.208
          3.480         -4.113         -5.688         -4.178
          3.490         -4.084         -5.650         -4.149
          3.500         -4.055         -5.612         -4.119
          3.510         -4.026         -5.575         -4.090
          3.520         -3.998         -5.537         -4.061
          3.530         -3.969         -5.500         -4.033
          3.540         -3.941         -5.464         -4.004
          3.550         -3.914         -5.427         -3.976
          3.560         -3.886         -5.391         -3.948
          3.570         -3.859         -5.355         -3.921
          3.580         -3.832         -5.320         -3.893
          3.590         -3.805         -5.285         -3.866
          3.600         -3.778         -5.250         -3.839
          3.610         -3.752         -5.215         -3.812
          3.620         -3.725         -5.181         -3.786
          3.630         -3.699         -5.147         -3.759
          3.640         -3.674         -5.113         -3.733
          3.650         -3.648         -5.080         -3.707
          3.660         -3.623         -5.047         -3.682
          3.670         -3.598         -5.014         -3.656
          3.680         -3.573         -4.981         -3.631
          3.690         -3.548         -4.949         -3.606
          3.700         -3.523         -4.917         -3.581
          3.710         -3.499         -4.885         -3.556
          3.720         -3.475         -4.853         -3.532
          3.730         -3.451         -4.822         -3.508
          3.740         -3.427         -4.791         -3.484
          3.750         -3.404         -4.760         -3.460
          3.760         -3.380         -4.729         -3.436
          3.770         -3.357         -4.699         -3.413
          3.780         -3.334         -4.669         -3.389
          3.790         -3.311         -4.639         -3.366
          3.800         -3.288         -4.609         -3.343
          3.810         -3.266         -4.580         -3.320
          3.820         -3.244         -4.551         -3.298
          3.830         -3.222         -4.522         -3.275
          3.840         -3.200         -4.493         -3.253
          3.850         -3.178         -4.465         -3.231
          3.860         -3.156         -4.436         -3.209
          3.870         -3.135         -4.408         -3.188
          3.880         -3.113         -4.380         -3.166
          3.890         -3.092         -4.353         -3.145
          3.900         -3.071         -4.325         -3.123
          3.910         -3.051         -4.298         -3.102
          3.920         -3.030         -4.271         -3.081
          3.930         -3.009         -4.244         -3.061
          3.940         -2.989         -4.218         -3.040
          3.950         -2.969         -4.191         -3.020
          3.960         -2.949         -4.165         -2.999
          3.970         -2.929         -4.139         -2.979
          3.980         -2.909         -4.114         -2.959
          3.990         -2.890         -4.088         -2.939
          4.000         -2.870         -4.063         -2.920
          4.010         -2.851         -4.037         -2.900
          4.020         -2.832         -4.012         -2.881
          4.030         -2.813         -3.987         -2.862
          4.040         -2.794         -3.963         -2.843
          4.050         -2.775         -3.938         -2.824
          4.060         -2.757         -3.914         -2.805
          4.070         -2.738         -3.890         -2.786
          4.080         -2.720         -3.866         -2.768
          4.090         -2.702         -3.842         -2.749
          4.100         -2.684         -3.819         -2.731
          4.110         -2.666         -3.795         -2.713
          4.120         -2.648         -3.772         -2.695
          4.130         -2.631         -3.749         -2.677
          4.140         -2.613         -3.726         -2.659
          4.150         -2.596         -3.703         -2.642
          4.160         -2.578         -3.681         -2.624
          4.170         -2.561         -3.658         -2.607
          4.180         -2.544         -3.636         -2.590
          4.190         -2.527         -3.614         -2.572
          4.200         -2.511         -3.592         -2.555
          4.210         -2.494         -3.570         -2.539
          4.220         -2.477         -3.548         -2.522
          4.230         -2.461         -3.527         -2.505
          4.240         -2.445         -3.506         -2.489
          4.250         -2.428         -3.484         -2.472
          4.260         -2.412         -3.463         -2.456
          4.270         -2.396         -3.443         -2.440
          4.280         -2.381         -3.422         -2.424
          4.290         -2.365         -3.401         -2.408
          4.300         -2.349         -3.381         -2.392
          4.310         -2.334         -3.360         -2.376
          4.320         -2.318         -3.340         -2.361
          4.330         -2.303         -3.320         -2.345
          4.340         -2.288         -3.300         -2.330
          4.350         -2.273         -3.281         -2.314
          4.360         -2.258         -3.261         -2.299
          4.370         -2.243         -3.242         -2.284
          4.380         -2.228         -3.222         -2.269
          4.390         -2.213         -3.203         -2.254
          4.400         -2.199         -3.184         -2.240
          4.410         -2.184         -3.165         -2.225
          4.420         -2.170         -3.146         -2.210
          4.430         -2.156         -3.127         -2.196
          4.440         -2.141         -3.109         -2.181
          4.450         -2.127         -3.090         -2.167
          4.460         -2.113         -3.072         -2.153
          4.470         -2.099         -3.054         -2.139
          4.480         -2.086         -3.036         -2.125
          4.490         -2.072         -3.018         -2.111
          4.500         -2.058         -3.000         -2.097
          4.510         -2.045         -2.982         -2.083
          4.520         -2.031         -2.965         -2.070
          4.530         -2.018         -2.947         -2.056
          4.540         -2.005         -2.930         -2.043
          4.550         -1.991         -2.913         -2.030
          4.560         -1.978         -2.895         -2.016
          4.570         -1.965         -2.878         -2.003
          4.580         -1.952         -2.861         -1.990
          4.590         -1.939         -2.845         -1.977
          4.600         -1.927         -2.828         -1.964
          4.610         -1.914         -2.811         -1.951
          4.620         -1.901         -2.795         -1.938
          4.630         -1.889         -2.779         -1.926
          4.640         -1.876         -2.762         -1.913
          4.650         -1.864         -2.746         -1.901
          4.660         -1.852         -2.730         -1.888
          4.670         -1.840         -2.714         -1.876
          4.680         -1.827         -2.698         -1.864
          4.690         -1.815         -2.682         -1.851
          4.700         -1.803         -2.667         -1.839
          4.710         -1.792         -2.651         -1.827
          4.720         -1.780         -2.636         -1.815
          4.730         -1.768         -2.620         -1.803
          4.740         -1.756         -2.605         -1.792
          4.750         -1.745         -2.590         -1.780
          4.760         -1.733         -2.575         -1.768
          4.770         -1.722         -2.560         -1.757
          4.780         -1.710         -2.545         -1.745
          4.790         -1.699         -2.530         -1.734
          4.800         -1.688         -2.516         -1.722
          4.810         -1.677         -2.501         -1.711
          4.820         -1.666         -2.487         -1.700
          4.830         -1.655         -2.472         -1.688
          4.840         -1.644         -2.458         -1.677
          4.850         -1.633         -2.444         -1.666
          4.860         -1.622         -2.429         -1.655
          4.870         -1.611         -2.415         -1.645
          4.880         -1.601         -2.401         -1.634
          4.890         -1.590         -2.387         -1.623
          4.900         -1.579         -2.374         -1.612
          4.910         -1.569         -2.360         -1.602
          4.920         -1.558         -2.346         -1.591
          4.930         -1.548         -2.333         -1.581
          4.940         -1.538         -2.319         -1.570
          4.950         -1.527         -2.306         -1.560
          4.960         -1.517         -2.292         -1.549
          4.970         -1.507         -2.279         -1.539
          4.980         -1.497         -2.266         -1.529
          4.990         -1.487         -2.253         -1.519
          5.000         -1.477         -2.240         -1.509
          5.010         -1.467         -2.227         -1.499
          5.020         -1.458         -2.214         -1.489
          5.030         -1.448         -2.201         -1.479
          5.040         -1.438         -2.189         -1.469
          5.050         -1.428         -2.176         -1.459
          5.060         -1.419         -2.164         -1.450
          5.070         -1.409         -2.151         -1.440
          5.080         -1.400         -2.139         -1.430
          5.090         -1.390         -2.126         -1.421
          5.100         -1.381         -2.114         -1.411
          5.110         -1.372         -2.102         -1.402
          5.120         -1.362         -2.090         -1.393
          5.130         -1.353         -2.078         -1.383
          5.140         -1.344         -2.066         -1.374
          5.150         -1.335         -2.054         -1.365
          5.160         -1.326         -2.042         -1.356
          5.170         -1.317         -2.030         -1.347
          5.180         -1.308         -2.019         -1.337
          5.190         -1.299         -2.007         -1.328
