      freq (eV)        Lorentz     Gen_Plasma      Bren_Borm
          0.050          0.862          0.027         94.078
          0.052          0.897          0.029         92.178
          0.054          0.932          0.030         90.352
          0.055          0.967          0.031         88.586
          0.057          1.002          0.032         86.893
          0.059          1.038          0.033         85.259
          0.061          1.073          0.034         83.681
          0.063          1.109          0.035         82.148
          0.065          1.146          0.036         80.672
          0.067          1.182          0.037         79.235
          0.069          1.219          0.038         77.850
          0.071          1.256          0.039         76.508
          0.073          1.293          0.040         75.205
          0.075          1.331          0.041         73.934
          0.077          1.368          0.042         72.705
          0.078          1.406          0.043         71.512
          0.080          1.445          0.044         70.346
          0.082          1.483          0.045         69.218
          0.084          1.522          0.046         68.121
          0.086          1.562          0.048         67.054
          0.088          1.602          0.049         66.009
          0.090          1.642          0.050         64.997
          0.092          1.682          0.051         64.006
          0.094          1.723          0.052         63.046
          0.096          1.764          0.053         62.110
          0.098          1.805          0.054         61.198
          0.099          1.847          0.055         60.309
          0.101          1.890          0.056         59.432
          0.103          1.933          0.057         58.591
          0.105          1.975          0.058         57.769
          0.107          2.019          0.059         56.967
          0.109          2.063          0.060         56.185
          0.111          2.109          0.061         55.381
          0.113          2.154          0.062         54.635
          0.115          2.199          0.063         53.906
          0.117          2.245          0.064         53.194
          0.119          2.291          0.066         52.498
          0.120          2.338          0.067         51.818
          0.122          2.386          0.068         51.153
          0.124          2.434          0.069         50.503
          0.126          2.485          0.070         49.834
          0.128          2.534          0.071         49.212
          0.130          2.583          0.072         48.604
          0.132          2.634          0.073         48.008
          0.134          2.685          0.074         47.426
          0.136          2.736          0.075         46.855
          0.138          2.788          0.076         46.296
          0.140          2.841          0.077         45.749
          0.142          2.898          0.078         45.185
          0.143          2.952          0.079         44.661
          0.145          3.007          0.080         44.147
          0.147          3.063          0.081         43.643
          0.149          3.119          0.082         43.149
          0.151          3.177          0.084         42.665
          0.153          3.235          0.085         42.190
          0.155          3.297          0.086         41.701
          0.157          3.357          0.087         41.244
          0.159          3.417          0.088         40.797
          0.161          3.479          0.089         40.358
          0.163          3.541          0.090         39.927
          0.165          3.605          0.091         39.504
          0.166          3.669          0.092         39.089
          0.168          3.734          0.093         38.681
          0.170          3.804          0.094         38.260
          0.172          3.871          0.095         37.867
          0.174          3.939          0.096         37.482
          0.176          4.009          0.097         37.103
          0.178          4.079          0.098         36.730
          0.180          4.150          0.099         36.365
          0.182          4.223          0.101         36.005
          0.184          4.297          0.102         35.652
          0.186          4.375          0.103         35.286
          0.188          4.452          0.104         34.945
          0.189          4.529          0.105         34.610
          0.191          4.608          0.106         34.280
          0.193          4.687          0.107         33.955
          0.195          4.769          0.108         33.636
          0.197          4.851          0.109         33.322
          0.199          4.939          0.110         32.997
          0.201          5.025          0.111         32.693
          0.203          5.111          0.112         32.394
          0.205          5.200          0.113         32.100
          0.207          5.289          0.114         31.810
          0.208          5.380          0.115         31.525
          0.210          5.473          0.117         31.244
          0.212          5.567          0.118         30.967
          0.214          5.668          0.119         30.681
          0.216          5.766          0.120         30.413
          0.218          5.865          0.121         30.149
          0.220          5.966          0.122         29.888
          0.222          6.069          0.123         29.632
          0.224          6.173          0.124         29.379
          0.226          6.280          0.125         29.131
          0.228          6.388          0.126         28.885
          0.230          6.504          0.127         28.631
          0.232          6.616          0.128         28.392
          0.233          6.730          0.129         28.158
          0.235          6.845          0.130         27.926
          0.237          6.963          0.131         27.698
          0.239          7.083          0.133         27.472
          0.241          7.205          0.134         27.250
          0.243          7.330          0.135         27.031
          0.245          7.463          0.136         26.804
          0.247          7.591          0.137         26.590
          0.249          7.722          0.138         26.380
          0.251          7.855          0.139         26.173
          0.253          7.990          0.140         25.968
          0.254          8.128          0.141         25.766
          0.256          8.268          0.142         25.566
          0.258          8.418          0.143         25.359
          0.260          8.563          0.144         25.165
          0.262          8.710          0.145         24.973
          0.264          8.860          0.146         24.784
          0.266          9.012          0.148         24.597
          0.268          9.166          0.149         24.412
          0.270          9.324          0.150         24.230
          0.272          9.483          0.151         24.049
          0.274          9.654          0.152         23.862
          0.276          9.819          0.153         23.687
          0.277          9.986          0.154         23.513
          0.279         10.156          0.155         23.342
          0.281         10.328          0.156         23.172
          0.283         10.503          0.157         23.005
          0.285         10.681          0.158         22.839
          0.287         10.860          0.159         22.676
          0.289         11.052          0.160         22.506
          0.291         11.237          0.162         22.346
          0.293         11.425          0.163         22.188
          0.295         11.614          0.164         22.032
          0.296         11.806          0.165         21.878
          0.298         12.001          0.166         21.726
          0.300         12.197          0.167         21.575
          0.302         12.406          0.168         21.418
          0.304         12.607          0.169         21.270
          0.306         12.810          0.170         21.125
          0.308         13.014          0.171         20.980
          0.310         13.221          0.172         20.838
          0.312         13.429          0.173         20.697
          0.314         13.638          0.174         20.557
          0.316         13.849          0.176         20.419
          0.318         14.072          0.177         20.275
          0.320         14.285          0.178         20.140
          0.321         14.499          0.179         20.007
          0.323         14.714          0.180         19.874
          0.325         14.929          0.181         19.744
          0.327         15.145          0.182         19.614
          0.329         15.361          0.183         19.486
          0.331         15.587          0.184         19.352
          0.333         15.802          0.185         19.227
          0.335         16.016          0.186         19.102
          0.337         16.230          0.187         18.979
          0.339         16.442          0.189         18.858
          0.341         16.652          0.190         18.737
          0.342         16.860          0.191         18.618
          0.344         17.067          0.192         18.499
          0.346         17.281          0.193         18.376
          0.348         17.482          0.194         18.260
          0.350         17.679          0.195         18.145
          0.352         17.873          0.196         18.032
          0.354         18.063          0.197         17.919
          0.356         18.249          0.198         17.808
          0.358         18.430          0.199         17.697
          0.360         18.605          0.200         17.588
          0.362         18.785          0.202         17.474
          0.363         18.949          0.203         17.366
          0.365         19.107          0.204         17.260
          0.367         19.258          0.205         17.155
          0.369         19.403          0.206         17.050
          0.371         19.540          0.207         16.947
          0.373         19.669          0.208         16.844
          0.375         19.791          0.209         16.743
          0.377         19.910          0.210         16.637
          0.379         20.015          0.211         16.537
          0.381         20.110          0.213         16.438
          0.383         20.197          0.214         16.340
          0.385         20.274          0.215         16.243
          0.386         20.342          0.216         16.147
          0.388         20.400          0.217         16.052
          0.390         20.450          0.218         15.952
          0.392         20.488          0.219         15.858
          0.394         20.516          0.220         15.765
          0.396         20.533          0.221         15.673
          0.398         20.541          0.222         15.582
          0.400         20.538          0.223         15.491
          0.402         20.526          0.225         15.402
          0.404         20.503          0.226         15.313
          0.406         20.468          0.227         15.220
          0.407         20.425          0.228         15.132
          0.409         20.372          0.229         15.045
          0.411         20.310          0.230         14.959
          0.413         20.238          0.231         14.874
          0.415         20.157          0.232         14.789
          0.417         20.067          0.233         14.705
          0.419         19.969          0.234         14.622
          0.421         19.857          0.236         14.535
          0.423         19.742          0.237         14.453
          0.425         19.619          0.238         14.371
          0.427         19.489          0.239         14.291
          0.428         19.353          0.240         14.211
          0.430         19.209          0.241         14.131
          0.432         19.059          0.242         14.053
          0.434         18.895          0.243         13.970
          0.436         18.734          0.244         13.893
          0.438         18.567          0.245         13.816
          0.440         18.396          0.247         13.740
          0.442         18.220          0.248         13.664
          0.444         18.041          0.249         13.589
          0.446         17.857          0.250         13.514
          0.448         17.671          0.251         13.440
          0.450         17.471          0.252         13.363
          0.452         17.279          0.253         13.290
          0.453         17.085          0.254         13.217
          0.455         16.888          0.255         13.146
          0.457         16.690          0.257         13.074
          0.459         16.491          0.258         13.004
          0.461         16.291          0.259         12.933
          0.463         16.090          0.260         12.864
          0.465         15.878          0.261         12.791
          0.467         15.677          0.262         12.722
          0.469         15.475          0.263         12.654
          0.471         15.274          0.264         12.586
          0.472         15.073          0.265         12.519
          0.474         14.873          0.267         12.452
          0.476         14.674          0.268         12.386
          0.478         14.476          0.269         12.320
          0.480         14.269          0.270         12.252
          0.482         14.074          0.271         12.187
          0.484         13.880          0.272         12.122
          0.486         13.688          0.273         12.059
          0.488         13.498          0.274         11.995
          0.490         13.310          0.275         11.932
          0.492         13.123          0.277         11.869
          0.493         12.939          0.278         11.807
          0.495         12.748          0.279         11.742
          0.497         12.568          0.280         11.681
          0.499         12.391          0.281         11.620
          0.501         12.216          0.282         11.560
          0.503         12.043          0.283         11.500
          0.505         11.873          0.284         11.440
          0.507         11.706          0.286         11.381
          0.509         11.532          0.287         11.319
          0.511         11.370          0.288         11.260
          0.513         11.210          0.289         11.202
          0.515         11.053          0.290         11.145
          0.518         10.747          0.292         11.030
          0.520         10.598          0.293         10.974
          0.522         10.444          0.295         10.915
          0.524         10.300          0.296         10.859
          0.526         10.159          0.297         10.803
          0.528         10.020          0.298         10.748
          0.530          9.884          0.299         10.694
          0.534          9.620          0.301         10.585
          0.536          9.491          0.302         10.532
          0.537          9.365          0.304         10.478
          0.539          9.236          0.305         10.422
          0.543          8.997          0.307         10.318
          0.545          8.881          0.308         10.266
          0.547          8.767          0.309         10.214
          0.549          8.656          0.310         10.163
          0.553          8.435          0.313         10.058
          0.555          8.330          0.314         10.008
          0.557          8.228          0.315          9.958
          0.559          8.128          0.316          9.908
          0.562          7.935          0.318          9.809
          0.564          7.842          0.319          9.761
          0.566          7.750          0.321          9.712
          0.570          7.569          0.323          9.613
          0.572          7.483          0.324          9.566
          0.576          7.319          0.326          9.471
          0.578          7.239          0.327          9.424
          0.580          7.161          0.329          9.378
          0.584          7.007          0.331          9.283
          0.585          6.935          0.332          9.237
          0.589          6.795          0.334          9.147
          0.591          6.728          0.336          9.102
          0.595          6.598          0.338          9.013
          0.597          6.532          0.339          8.966
          0.601          6.412          0.341          8.879
          0.603          6.354          0.342          8.836
          0.606          6.243          0.345          8.750
          0.608          6.189          0.346          8.707
          0.612          6.086          0.348          8.623
          0.614          6.034          0.349          8.578
          0.618          5.940          0.352          8.495
          0.620          5.892          0.353          8.452
          0.623          5.821          0.355          8.385
          0.626          5.750          0.357          8.317
          0.629          5.684          0.359          8.250
          0.633          5.620          0.361          8.183
          0.636          5.560          0.363          8.117
          0.639          5.501          0.365          8.049
          0.642          5.445          0.367          7.982
          0.646          5.392          0.369          7.915
          0.649          5.341          0.371          7.847
          0.652          5.293          0.373          7.780
          0.656          5.246          0.375          7.712
          0.659          5.203          0.377          7.644
          0.663          5.162          0.379          7.577
          0.667          5.124          0.381          7.509
          0.670          5.088          0.384          7.441
          0.674          5.055          0.386          7.374
          0.677          5.025          0.388          7.306
          0.681          4.996          0.390          7.238
          0.685          4.970          0.393          7.170
          0.689          4.947          0.395          7.102
          0.693          4.926          0.397          7.035
          0.697          4.906          0.400          6.967
          0.701          4.889          0.402          6.898
          0.705          4.874          0.405          6.829
          0.709          4.862          0.407          6.761
          0.713          4.851          0.410          6.693
          0.717          4.841          0.412          6.625
          0.721          4.834          0.415          6.558
          0.725          4.828          0.418          6.488
          0.729          4.823          0.420          6.421
          0.734          4.819          0.423          6.353
          0.738          4.817          0.426          6.284
          0.742          4.814          0.429          6.216
          0.747          4.813          0.431          6.147
          0.751          4.811          0.434          6.079
          0.756          4.809          0.437          6.010
          0.761          4.807          0.440          5.942
          0.765          4.803          0.443          5.874
          0.770          4.799          0.446          5.804
          0.775          4.792          0.449          5.736
          0.780          4.784          0.452          5.667
          0.785          4.773          0.455          5.599
          0.790          4.759          0.459          5.531
          0.795          4.742          0.462          5.462
          0.800          4.721          0.465          5.393
          0.805          4.696          0.469          5.325
          0.810          4.667          0.472          5.256
          0.816          4.633          0.475          5.188
          0.821          4.594          0.479          5.119
          0.827          4.551          0.483          5.051
          0.832          4.502          0.486          4.983
          0.838          4.449          0.490          4.915
          0.843          4.390          0.494          4.846
          0.849          4.326          0.497          4.778
          0.855          4.257          0.501          4.709
          0.861          4.185          0.505          4.641
          0.867          4.108          0.509          4.573
          0.918          3.394          0.544          4.031
          0.925          3.300          0.548          3.963
          0.932          3.207          0.553          3.896
          0.939          3.114          0.558          3.829
          0.946          3.023          0.563          3.762
          0.954          2.933          0.568          3.695
          0.961          2.844          0.573          3.629
          0.969          2.758          0.578          3.562
          0.976          2.673          0.583          3.495
          0.984          2.592          0.589          3.430
          0.992          2.513          0.594          3.364
          1.000          2.436          0.600          3.298
          1.008          2.362          0.606          3.233
          1.016          2.293          0.611          3.170
          1.025          2.220          0.618          3.100
          1.033          2.158          0.624          3.039
          1.042          2.093          0.630          2.973
          1.051          2.031          0.637          2.907
          1.060          1.973          0.643          2.843
          1.069          1.919          0.650          2.781
          1.078          1.868          0.656          2.720
          1.088          1.815          0.664          2.653
          1.097          1.771          0.670          2.595
          1.107          1.725          0.678          2.532
          1.117          1.682          0.685          2.470
          1.127          1.641          0.693          2.410
          1.137          1.604          0.701          2.351
          1.148          1.566          0.709          2.288
          1.159          1.530          0.717          2.227
          1.170          1.498          0.726          2.168
          1.181          1.468          0.735          2.110
          1.192          1.440          0.743          2.054
          1.204          1.412          0.753          1.994
          1.216          1.386          0.762          1.937
          1.228          1.363          0.772          1.881
          1.240          1.341          0.782          1.827
          1.252          1.321          0.791          1.774
          1.265          1.302          0.802          1.720
          1.278          1.285          0.813          1.667
          1.291          1.269          0.824          1.616
          1.305          1.254          0.836          1.563
          1.319          1.240          0.848          1.512
          1.333          1.229          0.860          1.463
          1.348          1.218          0.873          1.413
          1.362          1.209          0.885          1.368
          1.378          1.200          0.899          1.319
          1.393          1.194          0.913          1.276
          1.409          1.188          0.928          1.231
          1.425          1.184          0.942          1.189
          1.442          1.181          0.958          1.147
          1.459          1.179          0.975          1.107
          1.476          1.179          0.991          1.069
          1.494          1.179          1.009          1.032
          1.512          1.181          1.026          0.997
          1.531          1.185          1.046          0.963
          1.550          1.189          1.065          0.932
          1.569          1.195          1.085          0.903
          1.590          1.203          1.107          0.874
          1.610          1.212          1.129          0.849
          1.631          1.222          1.152          0.826
          1.653          1.234          1.177          0.806
          1.675          1.247          1.202          0.788
          1.698          1.262          1.230          0.773
          1.722          1.280          1.259          0.761
          1.746          1.299          1.288          0.752
          1.771          1.320          1.320          0.748
          1.797          1.343          1.354          0.747
          1.823          1.369          1.390          0.752
          1.851          1.398          1.429          0.762
          1.879          1.428          1.469          0.778
          1.907          1.461          1.511          0.799
          1.937          1.499          1.558          0.830
          1.968          1.540          1.608          0.869
          2.000          1.586          1.662          0.918
          2.033          1.636          1.720          0.979
          2.066          1.690          1.782          1.051
          2.101          1.750          1.850          1.141
          2.138          1.819          1.927          1.250
          2.175          1.893          2.008          1.374
          2.214          1.977          2.100          1.524
          2.254          2.071          2.201          1.697
          2.296          2.178          2.315          1.899
          2.339          2.297          2.442          2.127
          2.384          2.433          2.588          2.386
          2.431          2.589          2.756          2.676
          2.480          2.769          2.951          2.995
          2.530          2.970          3.173          3.330
          2.583          3.202          3.439          3.685
          2.638          3.463          3.751          4.043
          2.695          3.748          4.116          4.390
          2.755          4.049          4.546          4.714
          2.818          4.343          5.032          4.998
          2.883          4.591          5.537          5.223
          2.952          4.763          6.007          5.385
          3.024          4.832          6.340          5.479
          3.100          4.810          6.470          5.516
          3.179          4.739          6.416          5.514
          3.263          4.664          6.284          5.500
          3.351          4.623          6.186          5.506
          3.444          4.631          6.186          5.555
          3.542          4.687          6.295          5.658
          3.647          4.783          6.498          5.814
          3.757          4.896          6.742          5.999
          3.874          5.001          6.967          6.185
          3.999          5.066          7.096          6.342
          4.133          5.057          7.053          6.441
          4.201          5.017          6.957          6.462
          4.301          4.914          6.738          6.460
          4.400          4.764          6.454          6.422
          4.501          4.571          6.126          6.354
          4.601          4.349          5.793          6.265
          4.701          4.108          5.474          6.161
          4.801          3.857          5.187          6.049
          4.901          3.605          4.939          5.935
          5.000          3.361          4.737          5.825
          5.101          3.122          4.573          5.718
          5.202          2.897          4.440          5.620
          5.302          2.689          4.321          5.530
          5.401          2.500          4.196          5.449
          5.502          2.323          4.054          5.371
          5.601          2.164          3.909          5.297
          5.701          2.019          3.771          5.221
          5.800          1.889          3.653          5.143
          5.902          1.768          3.553          5.055
          6.002          1.662          3.477          4.958
          6.200          1.481          3.378          4.730
          6.359          1.362          3.334          4.504
          6.527          1.256          3.310          4.225
          6.703          1.165          3.302          3.892
          6.889          1.087          3.303          3.505
          7.086          1.022          3.309          3.072
          7.294          0.969          3.313          2.610
          7.516          0.930          3.310          2.134
          7.750          0.904          3.293          1.675
          8.000          0.891          3.257          1.251
          8.267          0.895          3.197          0.883
          8.552          0.918          3.109          0.586
          8.858          0.964          2.993          0.363
          8.921          0.977          2.967          0.327
          8.986          0.991          2.940          0.294
          9.052          1.006          2.911          0.263
          9.118          1.023          2.882          0.236
          9.186          1.041          2.852          0.210
          9.254          1.061          2.822          0.187
          9.324          1.084          2.790          0.166
          9.394          1.107          2.758          0.147
          9.466          1.133          2.725          0.130
          9.539          1.162          2.692          0.115
          9.613          1.193          2.658          0.102
          9.688          1.227          2.624          0.090
          9.764          1.264          2.590          0.079
          9.842          1.304          2.555          0.070
          9.920          1.348          2.521          0.062
         10.000          1.396          2.486          0.055
         10.080          1.447          2.452          0.049
         10.160          1.503          2.419          0.044
         10.250          1.571          2.382          0.039
         10.330          1.636          2.351          0.035
         10.420          1.715          2.316          0.032
         10.510          1.802          2.283          0.029
         10.600          1.896          2.251          0.026
         10.690          1.998          2.220          0.024
         10.780          2.110          2.190          0.022
         10.880          2.247          2.159          0.020
         10.970          2.382          2.132          0.019
         11.070          2.547          2.103          0.018
         11.170          2.730          2.077          0.017
         11.270          2.934          2.051          0.016
         11.380          3.183          2.025          0.015
         11.480          3.437          2.002          0.014
         11.590          3.750          1.979          0.013
         11.700          4.102          1.958          0.013
         11.810          4.499          1.937          0.012
         11.920          4.944          1.918          0.012
         12.040          5.492          1.898          0.011
         12.160          6.109          1.880          0.011
         12.280          6.797          1.862          0.010
         12.400          7.553          1.845          0.010
         12.530          8.436          1.827          0.009
         12.650          9.286          1.811          0.009
         12.780         10.196          1.793          0.009
         12.920         11.086          1.774          0.008
         13.050         11.733          1.756          0.008
         13.190         12.140          1.736          0.008
         13.330         12.176          1.716          0.008
         13.480         11.797          1.693          0.007
         13.630         11.062          1.670          0.007
         13.780         10.098          1.646          0.007
         13.930          9.037          1.622          0.007
         14.090          7.914          1.597          0.006
         14.250          6.875          1.571          0.006
         14.420          5.901          1.545          0.006
         14.590          5.069          1.520          0.006
         14.760          4.368          1.497          0.006
         14.940          3.751          1.474          0.005
         15.120          3.241          1.453          0.005
         15.310          2.798          1.434          0.005
         15.500          2.433          1.419          0.005
         15.700          2.116          1.406          0.005
         15.900          1.854          1.397          0.005
         16.100          1.635          1.392          0.005
         16.320          1.435          1.391          0.005
         16.530          1.275          1.394          0.005
         16.760          1.128          1.402          0.005
         16.990          1.004          1.415          0.005
         17.220          0.899          1.432          0.004
         17.470          0.802          1.456          0.004
         17.720          0.720          1.483          0.004
         17.970          0.649          1.515          0.005
         18.240          0.584          1.553          0.005
         18.510          0.528          1.594          0.005
         18.790          0.477          1.638          0.005
         19.080          0.432          1.683          0.005
         19.380          0.392          1.728          0.005
         19.680          0.357          1.769          0.005
         20.000          0.325          1.805          0.006
         20.330          0.295          1.831          0.006
         20.670          0.269          1.843          0.007
         21.020          0.246          1.839          0.009
         21.380          0.224          1.815          0.011
         21.760          0.205          1.769          0.015
         22.140          0.187          1.705          0.022
         22.550          0.171          1.620          0.035
         22.960          0.157          1.522          0.057
         23.400          0.143          1.411          0.096
         23.850          0.131          1.295          0.160
         24.310          0.120          1.180          0.260
         24.800          0.110          1.065          0.412
         25.310          0.100          0.954          0.623
         25.830          0.092          0.854          0.882
         26.010          0.089          0.821          0.978
         26.380          0.084          0.759          1.172
         27.000          0.076          0.667          1.451
         28.000          0.066          0.546          1.611
         29.010          0.057          0.451          1.326
         29.500          0.053          0.413          1.082
         30.000          0.050          0.378          0.819
         30.510          0.047          0.347          0.572
         31.010          0.044          0.320          0.376
         32.010          0.039          0.274          0.134
         33.010          0.035          0.236          0.041
         34.010          0.031          0.206          0.013
         35.010          0.028          0.181          0.006
         36.010          0.025          0.159          0.004
         37.010          0.023          0.142          0.003
         38.000          0.021          0.127          0.002
         39.010          0.019          0.114          0.002
         40.010          0.018          0.103          0.002
         41.010          0.016          0.093          0.001
         42.010          0.015          0.085          0.001
         43.010          0.014          0.077          0.001
         44.000          0.013          0.071          0.001
         45.010          0.012          0.065          0.001
         46.010          0.011          0.060          0.001
         47.010          0.010          0.055          0.001
         48.010          0.010          0.051          0.001
         49.010          0.009          0.047          0.001
         50.000          0.008          0.044          0.000
         52.020          0.007          0.038          0.000
         54.010          0.007          0.034          0.000
         56.010          0.006          0.030          0.000
         58.000          0.005          0.026          0.000
         60.020          0.005          0.023          0.000
         62.000          0.004          0.021          0.000
         64.020          0.004          0.019          0.000
         66.030          0.003          0.017          0.000
         68.020          0.003          0.015          0.000
         70.020          0.003          0.014          0.000
         72.010          0.003          0.013          0.000
         74.030          0.002          0.012          0.000
         76.030          0.002          0.011          0.000
         78.040          0.002          0.010          0.000
         80.000          0.002          0.009          0.000
         82.010          0.002          0.008          0.000
         83.000          0.002          0.008          0.000
         83.510          0.002          0.008          0.000
         84.010          0.002          0.008          0.000
         84.530          0.002          0.008          0.000
         84.990          0.002          0.007          0.000
         86.000          0.002          0.007          0.000
         87.020          0.001          0.007          0.000
         87.510          0.001          0.007          0.000
         88.010          0.001          0.007          0.000
        100.000          0.001          0.004          0.000
        105.000          0.001          0.004          0.000
        110.000          0.001          0.003          0.000
        120.000          0.001          0.003          0.000
        150.000          0.000          0.001          0.000
        180.000          0.000          0.001          0.000
        200.000          0.000          0.001          0.000
        220.000          0.000          0.000          0.000
        260.000          0.000          0.000          0.000
        300.000          0.000          0.000          0.000
        395.400          0.000          0.000          0.000
        452.200          0.000          0.000          0.000
        500.400          0.000          0.000          0.000
        525.000          0.000          0.000          0.000
        573.000          0.000          0.000          0.000
        637.600          0.000          0.000          0.000
        705.000          0.000          0.000          0.000
        776.500          0.000          0.000          0.000
        851.700          0.000          0.000          0.000
        929.600          0.000          0.000          0.000
       1012.000          0.000          0.000          0.000
       1188.000          0.000          0.000          0.000
       1254.000          0.000          0.000          0.000
       1487.000          0.000          0.000          0.000
       1550.000          0.000          0.000          0.000
       1772.000          0.000          0.000          0.000
       2067.000          0.000          0.000          0.000
       2480.000          0.000          0.000          0.000
       3100.000          0.000          0.000          0.000
       3543.000          0.000          0.000          0.000
       4134.000          0.000          0.000          0.000
       4960.000          0.000          0.000          0.000
       6200.000          0.000          0.000          0.000
       7086.000          0.000          0.000          0.000
       8267.000          0.000          0.000          0.000
       8552.000          0.000          0.000          0.000
       9186.000          0.000          0.000          0.000
       9920.000          0.000          0.000          0.000
